 Be Density=1.848, Angle=90.deg
 Photon Energy (eV), Atten Length (microns)
   30.0000  0.117143
   30.3089  0.121484
   30.6210  0.125986
   30.9363  0.130654
   31.2548  0.135495
   31.5766  0.140516
   31.9018  0.145723
   32.2302  0.151123
   32.5621  0.156723
   32.8974  0.162531
   33.2361  0.168554
   33.5783  0.174800
   33.9241  0.181041
   34.2734  0.186581
   34.6263  0.191645
   34.9828  0.196480
   35.3430  0.201435
   35.7069  0.206516
   36.0746  0.211725
   36.4460  0.217066
   36.8213  0.222542
   37.2004  0.228155
   37.5835  0.233910
   37.9705  0.239811
   38.3614  0.245860
   38.7564  0.252061
   39.1555  0.256674
   39.5586  0.259288
   39.9660  0.263685
   40.3775  0.267941
   40.7932  0.271877
   41.2133  0.275997
   41.6376  0.281751
   42.0663  0.286317
   42.4995  0.291846
   42.9371  0.295834
   43.3792  0.301704
   43.8258  0.306533
   44.2771  0.311399
   44.7330  0.317413
   45.1936  0.323923
   45.6589  0.330119
   46.1291  0.336587
   46.6041  0.342299
   47.0839  0.348013
   47.5687  0.353781
   48.0585  0.358786
   48.5534  0.362252
   49.0533  0.364603
   49.5584  0.372061
   50.0687  0.375447
   50.5842  0.376796
   51.1050  0.378150
   51.6312  0.379509
   52.1629  0.381513
   52.7000  0.384813
   53.2426  0.388643
   53.7908  0.394816
   54.3447  0.401120
   54.9043  0.405209
   55.4696  0.411933
   56.0407  0.418429
   56.6178  0.427427
   57.2007  0.436096
   57.7897  0.442585
   58.3847  0.451571
   58.9859  0.459515
   59.5933  0.466680
   60.2069  0.472684
   60.8268  0.478649
   61.4531  0.485526
   62.0859  0.489373
   62.7251  0.494380
   63.3710  0.500557
   64.0235  0.503589
   64.6827  0.508696
   65.3487  0.512499
   66.0216  0.518847
   66.7014  0.523339
   67.3882  0.528471
   68.0821  0.534068
   68.7831  0.540368
   69.4913  0.547199
   70.2068  0.557309
   70.9297  0.563145
   71.6601  0.568867
   72.3979  0.574649
   73.1434  0.581413
   73.8965  0.586228
   74.6574  0.592194
   75.4261  0.596926
   76.2027  0.600784
   76.9874  0.604825
   77.7801  0.608405
   78.5809  0.611450
   79.3901  0.615629
   80.2075  0.618651
   81.0334  0.621942
   81.8677  0.625196
   82.7107  0.629496
   83.5623  0.633825
   84.4228  0.639998
   85.2920  0.646193
   86.1702  0.652386
   87.0575  0.659398
   87.9539  0.666662
   88.8595  0.674165
   89.7745  0.681824
   90.6988  0.689599
   91.6327  0.697482
   92.5762  0.705459
   93.5295  0.713495
   94.4925  0.721002
   95.4655  0.728568
   96.4484  0.736190
   97.4415  0.743897
   98.4448  0.748515
   99.4585  0.758839
   100.483  0.766564
   101.517  0.775012
   102.562  0.782828
   103.619  0.790283
   104.685  0.799125
   105.763  0.809358
   106.852  0.813768
   107.953  0.806133
   109.064  0.789237
   110.187  0.743812
   111.322  0.663010
   112.468  8.415706E-02
   113.626  3.295596E-02
   114.796  4.348238E-02
   115.978  4.097697E-02
   117.172  3.669886E-02
   118.379  2.859581E-02
   119.597  2.908498E-02
   120.829  2.808213E-02
   122.073  2.570925E-02
   123.330  2.624358E-02
   124.600  2.368276E-02
   125.883  2.185003E-02
   127.179  2.354739E-02
   128.488  2.968256E-02
   129.811  3.792597E-02
   131.148  4.701405E-02
   132.498  5.158283E-02
   133.863  5.283022E-02
   135.241  5.331335E-02
   136.634  5.396770E-02
   138.040  5.566885E-02
   139.462  5.685760E-02
   140.898  5.683905E-02
   142.349  5.666978E-02
   143.814  5.709345E-02
   145.295  5.800150E-02
   146.791  5.861350E-02
   148.303  5.842699E-02
   149.830  5.826377E-02
   151.372  5.884995E-02
   152.931  5.885293E-02
   154.506  5.878113E-02
   156.096  5.812937E-02
   157.704  5.745523E-02
   159.328  5.783422E-02
   160.968  5.871016E-02
   162.626  6.068739E-02
   164.300  6.440403E-02
   165.992  6.826939E-02
   167.701  7.252289E-02
   169.428  7.625607E-02
   171.172  7.860760E-02
   172.935  8.096801E-02
   174.715  8.342468E-02
   176.514  8.649796E-02
   178.332  9.075436E-02
   180.168  9.367289E-02
   182.023  9.543209E-02
   183.897  9.705946E-02
   185.791  9.875868E-02
   187.704  0.100579
   189.637  0.101645
   191.589  0.103083
   193.562  0.104747
   195.555  0.107129
   197.568  0.109421
   199.603  0.110852
   201.658  0.112705
   203.734  0.114062
   205.832  0.116055
   207.952  0.118697
   210.093  0.121411
   212.256  0.124391
   214.441  0.127783
   216.650  0.130604
   218.880  0.134013
   221.134  0.136640
   223.411  0.140476
   225.711  0.143006
   228.035  0.147343
   230.383  0.153060
   232.756  0.159167
   235.152  0.165060
   237.573  0.168833
   240.020  0.172627
   242.491  0.177238
   244.988  0.182491
   247.510  0.184925
   250.059  0.186959
   252.634  0.191384
   255.235  0.196666
   257.863  0.202091
   260.518  0.207667
   263.201  0.213398
   265.911  0.219286
   268.649  0.225337
   271.415  0.231555
   274.209  0.237945
   277.033  0.244511
   279.885  0.251258
   282.767  0.258191
   285.679  0.265315
   288.620  0.272635
   291.592  0.280158
   294.594  0.287890
   297.628  0.295834
   300.692  0.303997
   303.788  0.312387
   306.916  0.321006
   310.077  0.329862
   313.269  0.338965
   316.495  0.348233
   319.754  0.357662
   323.046  0.367350
   326.372  0.377298
   329.733  0.387514
   333.128  0.398008
   336.558  0.408787
   340.024  0.419856
   343.525  0.431227
   347.062  0.442906
   350.635  0.454899
   354.246  0.467218
   357.893  0.479870
   361.578  0.492866
   365.301  0.506214
   369.063  0.519922
   372.863  0.534003
   376.702  0.548465
   380.581  0.563318
   384.499  0.578573
   388.459  0.594334
   392.458  0.611140
   396.499  0.628422
   400.582  0.646193
   404.707  0.665041
   408.874  0.684438
   413.084  0.704400
   417.337  0.724944
   421.634  0.746089
   425.976  0.767851
   430.362  0.790246
   434.793  0.813294
   439.270  0.837015
   443.793  0.861428
   448.362  0.886554
   452.979  0.912410
   457.643  0.939022
   462.355  0.966411
   467.116  0.994598
   471.926  1.02361
   476.785  1.05346
   481.694  1.08419
   486.654  1.11581
   491.665  1.14836
   496.727  1.18185
   501.842  1.21632
   507.009  1.25180
   512.230  1.28831
   517.504  1.32588
   522.832  1.36455
   528.216  1.40435
   533.655  1.44531
   539.150  1.48747
   544.701  1.53085
   550.310  1.57550
   555.976  1.62145
   561.701  1.66887
   567.484  1.71877
   573.327  1.77016
   579.231  1.82309
   585.195  1.87759
   591.220  1.93373
   597.308  1.99154
   603.458  2.05109
   609.672  2.11241
   615.949  2.17557
   622.291  2.24061
   628.699  2.30760
   635.172  2.37660
   641.712  2.45012
   648.320  2.52778
   654.995  2.60789
   661.740  2.69053
   668.553  2.77580
   675.437  2.85954
   682.392  2.94366
   689.418  3.02679
   696.517  3.11226
   703.689  3.20124
   710.934  3.29780
   718.254  3.39727
   725.650  3.49984
   733.122  3.60736
   740.670  3.71818
   748.297  3.83242
   756.002  3.95016
   763.786  4.07153
   771.650  4.19661
   779.596  4.32554
   787.623  4.45843
   795.733  4.59541
   803.926  4.73659
   812.204  4.88209
   820.567  5.03208
   829.016  5.18669
   837.552  5.34606
   846.176  5.51029
   854.888  5.67957
   863.691  5.85406
   872.584  6.03390
   881.569  6.21900
   890.646  6.40895
   899.816  6.60469
   909.081  6.80640
   918.442  7.01432
   927.899  7.22855
   937.453  7.44931
   947.106  7.68015
   956.858  7.91819
   966.710  8.16360
   976.664  8.41657
   986.720  8.67740
   996.880  8.94637
   1007.14  9.22361
   1017.51  9.50943
   1027.99  9.80415
   1038.58  10.1080
   1049.27  10.4212
   1060.07  10.7443
   1070.99  11.0773
   1082.02  11.4206
   1093.16  11.7745
   1104.41  12.1394
   1115.79  12.5155
   1127.27  12.9034
   1138.88  13.3033
   1150.61  13.7157
   1162.46  14.1408
   1174.42  14.5790
   1186.52  15.0307
   1198.73  15.4965
   1211.08  15.9767
   1223.55  16.4719
   1236.15  16.9823
   1248.87  17.5086
   1261.73  18.0512
   1274.72  18.6106
   1287.85  19.1873
   1301.11  19.7819
   1314.51  20.3949
   1328.04  21.0270
   1341.72  21.6786
   1355.53  22.3504
   1369.49  23.0435
   1383.59  23.7582
   1397.84  24.4953
   1412.23  25.2550
   1426.77  26.0382
   1441.46  26.8457
   1456.30  27.6784
   1471.30  28.5370
   1486.45  29.4219
   1501.75  30.3344
   1517.22  31.2752
   1532.84  32.2663
   1548.62  33.2888
   1564.57  34.3434
   1580.68  35.4315
   1596.95  36.5541
   1613.40  37.7121
   1630.01  38.9068
   1646.79  40.1393
   1663.75  41.4109
   1680.88  42.7229
   1698.19  44.0766
   1715.67  45.4728
   1733.34  46.9133
   1751.18  48.3993
   1769.22  49.9325
   1787.43  51.5142
   1805.84  53.1459
   1824.43  54.8291
   1843.22  56.5656
   1862.20  58.3571
   1881.37  60.2054
   1900.74  62.1121
   1920.31  64.0791
   1940.09  66.1082
   1960.06  68.2014
   1980.24  70.3611
   2000.63  72.5892
   2021.23  74.8880
   2042.05  77.2989
   2063.07  79.7971
   2084.31  82.3764
   2105.78  85.0385
   2127.46  87.7864
   2149.36  90.6234
   2171.49  93.5517
   2193.85  96.5745
   2216.44  99.6948
   2239.26  102.916
   2262.32  106.240
   2285.62  109.673
   2309.15  113.216
   2332.93  116.872
   2356.95  120.647
   2381.22  124.544
   2405.73  128.566
   2430.51  132.717
   2455.53  137.002
   2480.81  141.426
   2506.36  145.991
   2532.17  150.704
   2558.24  155.568
   2584.58  160.589
   2611.19  165.771
   2638.08  171.120
   2665.24  176.642
   2692.68  182.340
   2720.41  188.222
   2748.42  194.294
   2776.72  200.560
   2805.31  207.027
   2834.20  213.701
   2863.38  220.590
   2892.86  227.700
   2922.65  235.037
   2952.74  242.610
   2983.15  250.425
   3013.86  258.493
   3044.89  266.924
   3076.25  275.686
   3107.92  284.733
   3139.92  294.075
   3172.25  303.724
   3204.92  313.685
   3237.92  323.971
   3271.26  334.591
   3304.94  345.557
   3338.97  356.882
   3373.35  368.574
   3408.08  380.648
   3443.17  393.112
   3478.63  405.983
   3514.45  419.271
   3550.63  432.991
   3587.19  447.154
   3624.13  461.777
   3661.44  476.872
   3699.14  492.456
   3737.23  508.545
   3775.71  525.152
   3814.59  542.296
   3853.87  559.991
   3893.55  578.256
   3933.64  597.110
   3974.14  616.570
   4015.06  636.658
   4056.40  657.395
   4098.17  678.799
   4140.37  701.121
   4183.00  724.195
   4226.07  748.015
   4269.59  772.605
   4313.55  797.990
   4357.96  824.191
   4402.83  851.240
   4448.17  879.157
   4493.97  907.973
   4540.24  937.713
   4586.99  968.403
   4634.22  1000.08
   4681.94  1032.76
   4730.15  1066.49
   4778.85  1101.29
   4828.06  1137.20
   4877.77  1174.24
   4928.00  1212.46
   4978.74  1251.89
   5030.00  1292.56
   5036.95  1298.14
   5043.91  1303.74
   5050.87  1309.36
   5057.85  1315.01
   5064.83  1320.69
   5071.83  1326.38
   5078.84  1332.10
   5085.85  1337.84
   5092.88  1343.61
   5099.91  1349.40
   5106.96  1355.22
   5114.01  1361.06
   5121.07  1366.92
   5128.15  1372.81
   5135.23  1378.73
   5142.32  1384.66
   5149.43  1390.62
   5156.54  1396.61
   5163.66  1402.62
   5170.79  1408.66
   5177.94  1414.72
   5185.09  1420.81
   5192.25  1426.92
   5199.42  1433.06
   5206.60  1439.22
   5213.80  1445.41
   5221.00  1451.64
   5228.21  1457.94
   5235.43  1464.26
   5242.66  1470.61
   5249.90  1476.99
   5257.16  1483.39
   5264.42  1489.82
   5271.69  1496.27
   5278.97  1502.76
   5286.26  1509.27
   5293.56  1515.81
   5300.88  1522.37
   5308.20  1528.96
   5315.53  1535.58
   5322.87  1542.23
   5330.23  1548.90
   5337.59  1555.60
   5344.96  1562.33
   5352.34  1569.09
   5359.74  1575.88
   5367.14  1582.70
   5374.55  1589.54
   5381.98  1596.41
   5389.41  1603.31
   5396.85  1610.24
   5404.31  1617.20
   5411.77  1624.19
   5419.25  1631.20
   5426.73  1638.25
   5434.23  1645.32
   5441.74  1652.43
   5449.25  1659.56
   5456.78  1666.72
   5464.32  1673.91
   5471.87  1681.14
   5479.42  1688.39
   5486.99  1695.67
   5494.57  1702.98
   5502.16  1710.32
   5509.76  1717.70
   5517.37  1725.10
   5524.99  1732.53
   5532.62  1739.99
   5540.27  1747.49
   5547.92  1755.01
   5555.58  1762.57
   5563.26  1770.15
   5570.94  1777.78
   5578.63  1785.42
   5586.34  1793.10
   5594.06  1800.82
   5601.78  1808.56
   5609.52  1816.34
   5617.27  1824.15
   5625.03  1831.99
   5632.80  1839.86
   5640.58  1847.77
   5648.37  1855.70
   5656.17  1863.67
   5663.98  1871.67
   5671.81  1879.71
   5679.64  1887.78
   5687.49  1895.88
   5695.34  1904.01
   5703.21  1912.18
   5711.09  1920.38
   5718.98  1928.62
   5726.88  1936.88
   5734.79  1945.19
   5742.71  1953.52
   5750.64  1961.89
   5758.58  1970.29
   5766.54  1978.73
   5774.50  1987.20
   5782.48  1995.71
   5790.47  2004.25
   5798.46  2012.82
   5806.47  2021.44
   5814.49  2030.08
   5822.52  2038.76
   5830.57  2047.47
   5838.62  2056.22
   5846.69  2065.01
   5854.76  2073.83
   5862.85  2082.69
   5870.95  2091.59
   5879.06  2100.52
   5887.18  2109.48
   5895.31  2118.48
   5903.45  2127.52
   5911.61  2136.60
   5919.77  2145.71
   5927.95  2154.86
   5936.14  2164.04
   5944.34  2173.26
   5952.55  2182.52
   5960.77  2191.82
   5969.00  2201.15
   5977.25  2210.52
   5985.50  2219.93
   5993.77  2229.37
   6002.05  2238.86
   6010.34  2248.38
   6018.64  2257.94
   6026.96  2267.55
   6035.28  2277.19
   6043.62  2286.86
   6051.97  2296.58
   6060.32  2306.34
   6068.70  2316.13
   6077.08  2325.96
   6085.47  2335.84
   6093.88  2345.75
   6102.29  2355.70
   6110.72  2365.69
   6119.16  2375.72
   6127.62  2385.79
   6136.08  2395.91
   6144.56  2406.06
   6153.04  2416.25
   6161.54  2426.48
   6170.05  2436.75
   6178.58  2447.07
   6187.11  2457.42
   6195.66  2467.82
   6204.21  2478.26
   6212.78  2488.73
   6221.37  2499.25
   6229.96  2509.81
   6238.56  2520.41
   6247.18  2531.06
   6255.81  2541.74
   6264.45  2552.47
   6273.10  2563.24
   6281.77  2574.06
   6290.45  2584.91
   6299.14  2595.81
   6307.84  2606.75
   6316.55  2617.73
   6325.27  2628.76
   6334.01  2639.89
   6342.76  2651.09
   6351.52  2662.32
   6360.29  2673.60
   6369.08  2684.93
   6377.88  2696.29
   6386.69  2707.70
   6395.51  2719.17
   6404.34  2730.67
   6413.19  2742.21
   6422.05  2753.81
   6430.92  2765.45
   6439.80  2777.14
   6448.70  2788.87
   6457.60  2800.64
   6466.52  2812.46
   6475.45  2824.33
   6484.40  2836.24
   6493.36  2848.21
   6502.32  2860.21
   6511.31  2872.27
   6520.30  2884.37
   6529.31  2896.51
   6538.33  2908.71
   6547.36  2920.95
   6556.40  2933.24
   6565.46  2945.58
   6574.52  2957.96
   6583.61  2970.40
   6592.70  2982.88
   6601.81  2995.41
   6610.92  3007.99
   6620.06  3020.61
   6629.20  3033.29
   6638.36  3046.01
   6647.53  3058.78
   6656.71  3071.61
   6665.90  3084.48
   6675.11  3097.39
   6684.33  3110.37
   6693.56  3123.38
   6702.81  3136.45
   6712.07  3149.57
   6721.34  3162.74
   6730.62  3175.96
   6739.92  3189.23
   6749.23  3202.54
   6758.55  3215.92
   6767.89  3229.34
   6777.24  3242.81
   6786.60  3256.34
   6795.97  3269.91
   6805.36  3283.54
   6814.76  3297.22
   6824.17  3310.95
   6833.60  3324.74
   6843.04  3338.57
   6852.49  3352.45
   6861.95  3366.40
   6871.43  3380.38
   6880.92  3394.43
   6890.43  3408.53
   6899.95  3422.67
   6909.48  3436.88
   6919.02  3451.13
   6928.58  3465.44
   6938.15  3479.80
   6947.73  3494.22
   6957.33  3508.69
   6966.94  3523.21
   6976.56  3537.79
   6986.20  3552.43
   6995.85  3567.11
   7005.51  3581.85
   7015.19  3596.65
   7024.88  3611.50
   7034.58  3626.40
   7044.30  3641.37
   7054.03  3656.38
   7063.77  3671.45
   7073.53  3686.58
   7083.30  3701.76
   7093.08  3717.01
   7102.88  3732.30
   7112.69  3747.65
   7122.52  3763.07
   7132.35  3778.53
   7142.21  3794.05
   7152.07  3809.63
   7161.95  3825.27
   7171.84  3840.96
   7181.75  3856.71
   7191.67  3872.52
   7201.60  3888.39
   7211.55  3904.30
   7221.51  3920.28
   7231.49  3936.32
   7241.47  3952.41
   7251.48  3968.57
   7261.49  3984.78
   7271.52  4001.04
   7281.57  4017.38
   7291.62  4033.76
   7301.70  4050.20
   7311.78  4066.71
   7321.88  4083.28
   7332.00  4099.91
   7342.12  4116.59
   7352.26  4133.33
   7362.42  4150.13
   7372.59  4166.99
   7382.77  4183.91
   7392.97  4200.90
   7403.18  4217.94
   7413.41  4235.04
   7423.65  4252.21
   7433.90  4269.43
   7444.17  4286.73
   7454.45  4304.07
   7464.75  4321.47
   7475.06  4338.95
   7485.39  4356.48
   7495.72  4374.07
   7506.08  4391.73
   7516.45  4409.44
   7526.83  4427.22
   7537.23  4445.06
   7547.64  4462.96
   7558.06  4480.93
   7568.50  4498.95
   7578.96  4517.04
   7589.42  4535.20
   7599.91  4553.41
   7610.40  4571.69
   7620.92  4590.03
   7631.44  4608.43
   7641.98  4626.91
   7652.54  4645.44
   7663.11  4664.03
   7673.70  4682.69
   7684.29  4701.42
   7694.91  4720.21
   7705.54  4739.07
   7716.18  4757.98
   7726.84  4776.98
   7737.51  4796.02
   7748.20  4815.13
   7758.90  4834.32
   7769.62  4853.55
   7780.35  4872.86
   7791.10  4892.24
   7801.86  4911.68
   7812.64  4931.18
   7823.43  4950.74
   7834.23  4970.37
   7845.06  4990.08
   7855.89  5009.84
   7866.74  5029.67
   7877.61  5049.57
   7888.49  5069.53
   7899.39  5089.56
   7910.30  5109.65
   7921.22  5129.81
   7932.17  5150.04
   7943.12  5170.34
   7954.09  5190.69
   7965.08  5211.13
   7976.08  5231.62
   7987.10  5252.19
   7998.13  5272.81
   8009.18  5293.54
   8020.24  5314.34
   8031.32  5335.20
   8042.41  5356.14
   8053.52  5377.15
   8064.65  5398.22
   8075.79  5419.38
   8086.94  5440.59
   8098.11  5461.87
   8109.30  5483.23
   8120.50  5504.64
   8131.71  5526.13
   8142.95  5547.70
   8154.19  5569.32
   8165.46  5591.03
   8176.74  5612.79
   8188.03  5634.63
   8199.34  5656.54
   8210.67  5678.51
   8222.01  5700.54
   8233.36  5722.67
   8244.74  5744.85
   8256.13  5767.10
   8267.53  5789.42
   8278.95  5811.82
   8290.38  5834.29
   8301.83  5856.82
   8313.30  5879.46
   8324.79  5902.32
   8336.28  5925.25
   8347.80  5948.25
   8359.33  5971.33
   8370.88  5994.47
   8382.44  6017.70
   8394.02  6040.99
   8405.61  6064.35
   8417.22  6087.79
   8428.85  6111.30
   8440.49  6134.88
   8452.15  6158.54
   8463.82  6182.27
   8475.51  6206.08
   8487.22  6229.94
   8498.95  6253.89
   8510.68  6277.92
   8522.44  6302.00
   8534.21  6326.17
   8546.00  6350.42
   8557.80  6374.73
   8569.63  6399.12
   8581.46  6423.58
   8593.32  6448.11
   8605.19  6472.73
   8617.07  6497.40
   8628.97  6522.15
   8640.89  6546.99
   8652.83  6571.89
   8664.78  6596.88
   8676.75  6621.93
   8688.73  6647.05
   8700.74  6672.26
   8712.75  6697.53
   8724.79  6722.87
   8736.84  6748.30
   8748.91  6773.80
   8760.99  6799.37
   8773.09  6825.02
   8785.21  6850.73
   8797.35  6876.53
   8809.50  6902.40
   8821.67  6928.34
   8833.85  6954.37
   8846.05  6980.46
   8858.27  7006.62
   8870.51  7032.87
   8882.76  7059.19
   8895.03  7085.59
   8907.32  7112.06
   8919.62  7138.60
   8931.94  7165.22
   8944.28  7191.91
   8956.63  7218.68
   8969.00  7245.53
   8981.39  7272.44
   8993.80  7299.44
   9006.22  7326.50
   9018.66  7353.64
   9031.12  7380.86
   9043.59  7408.14
   9056.08  7435.50
   9068.59  7462.94
   9081.12  7490.45
   9093.66  7518.05
   9106.22  7545.70
   9118.80  7573.43
   9131.40  7601.25
   9144.01  7629.14
   9156.64  7657.09
   9169.29  7685.13
   9181.95  7713.24
   9194.64  7741.42
   9207.34  7769.69
   9220.05  7798.03
   9232.79  7826.44
   9245.54  7854.92
   9258.31  7883.48
   9271.10  7912.12
   9283.91  7940.82
   9296.73  7969.60
   9309.57  7998.46
   9322.43  8027.39
   9335.31  8056.40
   9348.20  8085.47
   9361.12  8114.62
   9374.05  8143.86
   9386.99  8173.15
   9399.96  8202.52
   9412.94  8231.98
   9425.95  8261.50
   9438.97  8291.10
   9452.00  8320.77
   9465.06  8350.50
   9478.13  8380.33
   9491.23  8410.21
   9504.34  8440.17
   9517.46  8470.22
   9530.61  8500.32
   9543.77  8530.51
   9556.96  8560.77
   9570.16  8591.09
   9583.38  8621.50
   9596.61  8651.97
   9609.87  8682.51
   9623.14  8713.14
   9636.44  8743.83
   9649.75  8774.59
   9663.08  8805.44
   9676.42  8836.34
   9689.79  8867.33
   9703.17  8898.38
   9716.58  8929.50
   9730.00  8960.70
   9743.44  8991.97
   9756.89  9023.30
   9770.37  9054.73
   9783.87  9086.21
   9797.38  9117.77
   9810.91  9149.39
   9824.47  9181.08
   9838.04  9212.86
   9851.63  9244.69
   9865.23  9276.60
   9878.86  9308.58
   9892.50  9340.63
   9906.17  9372.76
   9919.85  9404.94
   9933.55  9437.20
   9947.28  9469.54
   9961.02  9501.93
   9974.77  9534.40
   9988.55  9566.95
   10002.3  9599.59
   10016.2  9632.54
   10030.0  9665.55
   10038.1  9684.93
   10046.2  9704.34
   10054.4  9723.78
   10062.5  9743.24
   10070.7  9762.71
   10078.8  9782.21
   10087.0  9801.74
   10095.1  9821.31
   10103.3  9840.88
   10111.5  9860.48
   10119.6  9880.10
   10127.8  9899.76
   10136.0  9919.43
   10144.2  9939.14
   10152.4  9958.86
   10160.7  9978.62
   10168.9  9998.39
   10177.1  10018.2
   10185.3  10038.0
   10193.6  10057.8
   10201.8  10077.7
   10210.1  10097.6
   10218.4  10117.5
   10226.6  10137.5
   10234.9  10157.5
   10243.2  10177.4
   10251.5  10197.5
   10259.8  10217.5
   10268.1  10237.6
   10276.4  10257.7
   10284.7  10277.8
   10293.0  10297.9
   10301.4  10318.1
   10309.7  10338.2
   10318.0  10358.5
   10326.4  10378.7
   10334.7  10398.9
   10343.1  10419.2
   10351.5  10439.5
   10359.9  10459.8
   10368.2  10480.2
   10376.6  10500.6
   10385.0  10521.0
   10393.4  10541.4
   10401.8  10561.8
   10410.3  10582.3
   10418.7  10602.8
   10427.1  10623.3
   10435.6  10643.8
   10444.0  10664.4
   10452.4  10685.0
   10460.9  10705.6
   10469.4  10726.2
   10477.8  10746.8
   10486.3  10767.5
   10494.8  10788.2
   10503.3  10808.9
   10511.8  10829.7
   10520.3  10850.4
   10528.8  10871.2
   10537.3  10892.0
   10545.9  10912.9
   10554.4  10933.7
   10562.9  10954.6
   10571.5  10975.5
   10580.1  10996.4
   10588.6  11017.3
   10597.2  11038.3
   10605.8  11059.3
   10614.3  11080.3
   10622.9  11101.3
   10631.5  11122.4
   10640.1  11143.5
   10648.7  11164.6
   10657.4  11185.7
   10666.0  11206.8
   10674.6  11228.0
   10683.3  11249.2
   10691.9  11270.4
   10700.6  11291.6
   10709.2  11312.9
   10717.9  11334.2
   10726.6  11355.5
   10735.2  11376.8
   10743.9  11398.1
   10752.6  11419.5
   10761.3  11440.8
   10770.0  11462.2
   10778.7  11483.7
   10787.5  11505.1
   10796.2  11526.6
   10804.9  11548.1
   10813.7  11569.6
   10822.4  11591.1
   10831.2  11612.6
   10840.0  11634.2
   10848.7  11655.8
   10857.5  11677.4
   10866.3  11699.0
   10875.1  11720.7
   10883.9  11742.3
   10892.7  11764.0
   10901.5  11785.8
   10910.3  11807.5
   10919.2  11829.2
   10928.0  11851.0
   10936.8  11872.8
   10945.7  11894.6
   10954.5  11916.5
   10963.4  11938.3
   10972.3  11960.2
   10981.2  11982.1
   10990.0  12004.0
   10998.9  12026.0
   11007.8  12047.9
   11016.8  12069.9
   11025.7  12091.9
   11034.6  12113.9
   11043.5  12136.0
   11052.5  12158.0
   11061.4  12180.1
   11070.4  12202.2
   11079.3  12224.3
   11088.3  12246.4
   11097.3  12268.6
   11106.2  12290.8
   11115.2  12312.9
   11124.2  12335.1
   11133.2  12357.4
   11142.2  12379.6
   11151.2  12401.8
   11160.3  12424.1
   11169.3  12446.4
   11178.3  12468.7
   11187.4  12491.0
   11196.4  12513.4
   11205.5  12535.8
   11214.6  12558.1
   11223.6  12580.5
   11232.7  12603.0
   11241.8  12625.4
   11250.9  12647.9
   11260.0  12670.3
   11269.1  12692.8
   11278.3  12715.3
   11287.4  12737.8
   11296.5  12760.4
   11305.7  12783.0
   11314.8  12805.6
   11324.0  12828.2
   11333.1  12850.8
   11342.3  12873.4
   11351.5  12896.1
   11360.7  12918.7
   11369.9  12941.4
   11379.1  12964.1
   11388.3  12986.8
   11397.5  13009.6
   11406.7  13032.3
   11415.9  13055.1
   11425.2  13077.9
   11434.4  13100.7
   11443.7  13123.5
   11452.9  13146.4
   11462.2  13169.2
   11471.5  13192.1
   11480.8  13214.9
   11490.1  13237.8
   11499.4  13260.8
   11508.7  13283.7
   11518.0  13306.6
   11527.3  13329.6
   11536.6  13352.6
   11546.0  13375.5
   11555.3  13398.5
   11564.7  13421.6
   11574.0  13444.6
   11583.4  13467.6
   11592.8  13490.7
   11602.1  13513.8
   11611.5  13536.9
   11620.9  13560.0
   11630.3  13583.1
   11639.7  13606.2
   11649.2  13629.4
   11658.6  13652.6
   11668.0  13675.7
   11677.5  13698.9
   11686.9  13722.1
   11696.4  13745.4
   11705.8  13768.6
   11715.3  13791.9
   11724.8  13815.1
   11734.3  13838.4
   11743.8  13861.7
   11753.3  13885.0
   11762.8  13908.3
   11772.3  13931.6
   11781.8  13955.0
   11791.4  13978.3
   11800.9  14001.7
   11810.5  14025.1
   11820.0  14048.5
   11829.6  14071.9
   11839.2  14095.3
   11848.7  14118.8
   11858.3  14142.2
   11867.9  14165.7
   11877.5  14189.2
   11887.1  14212.6
   11896.8  14236.1
   11906.4  14259.7
   11916.0  14283.2
   11925.7  14306.7
   11935.3  14330.3
   11945.0  14353.8
   11954.6  14377.4
   11964.3  14401.0
   11974.0  14424.6
   11983.7  14448.2
   11993.4  14471.8
   12003.1  14495.4
   12012.8  14519.1
   12022.5  14542.7
   12032.3  14566.4
   12042.0  14590.0
   12051.7  14613.7
   12061.5  14637.4
   12071.3  14661.1
   12081.0  14684.8
   12090.8  14708.5
   12100.6  14732.2
   12110.4  14756.0
   12120.2  14779.7
   12130.0  14803.5
   12139.8  14827.2
   12149.6  14851.0
   12159.5  14874.8
   12169.3  14898.6
   12179.1  14922.4
   12189.0  14946.2
   12198.9  14970.0
   12208.7  14993.9
   12218.6  15017.7
   12228.5  15041.6
   12238.4  15065.4
   12248.3  15089.3
   12258.2  15113.2
   12268.1  15137.1
   12278.1  15161.0
   12288.0  15184.9
   12297.9  15208.8
   12307.9  15232.8
   12317.9  15256.7
   12327.8  15280.7
   12337.8  15304.6
   12347.8  15328.6
   12357.8  15352.5
   12367.8  15376.5
   12377.8  15400.5
   12387.8  15424.5
   12397.8  15448.5
   12407.9  15472.5
   12417.9  15496.6
   12428.0  15520.8
   12438.0  15545.1
   12448.1  15569.3
   12458.2  15593.6
   12468.2  15617.8
   12478.3  15642.1
   12488.4  15666.3
   12498.5  15690.6
   12508.6  15714.9
   12518.8  15739.2
   12528.9  15763.4
   12539.0  15787.7
   12549.2  15812.0
   12559.3  15836.3
   12569.5  15860.7
   12579.7  15885.0
   12589.9  15909.3
   12600.0  15933.6
   12610.2  15958.0
   12620.4  15982.3
   12630.7  16006.6
   12640.9  16031.0
   12651.1  16055.3
   12661.3  16079.7
   12671.6  16104.1
   12681.8  16128.4
   12692.1  16152.8
   12702.4  16177.2
   12712.7  16201.6
   12723.0  16226.0
   12733.2  16250.4
   12743.6  16274.7
   12753.9  16299.1
   12764.2  16323.5
   12774.5  16347.9
   12784.9  16372.3
   12795.2  16396.8
   12805.6  16421.2
   12815.9  16445.6
   12826.3  16470.0
   12836.7  16494.4
   12847.1  16518.8
   12857.5  16543.3
   12867.9  16567.7
   12878.3  16592.1
   12888.7  16616.6
   12899.1  16641.0
   12909.6  16665.5
   12920.0  16689.9
   12930.5  16714.3
   12940.9  16738.8
   12951.4  16763.2
   12961.9  16787.7
   12972.4  16812.1
   12982.9  16836.5
   12993.4  16861.0
   13003.9  16885.5
   13014.4  16909.9
   13024.9  16934.3
   13035.5  16958.8
   13046.0  16983.3
   13056.6  17007.7
   13067.2  17032.1
   13077.7  17056.6
   13088.3  17081.0
   13098.9  17105.5
   13109.5  17129.9
   13120.1  17154.4
   13130.7  17178.8
   13141.4  17203.3
   13152.0  17227.7
   13162.6  17252.2
   13173.3  17276.6
   13184.0  17301.0
   13194.6  17325.5
   13205.3  17349.9
   13216.0  17374.3
   13226.7  17398.8
   13237.4  17423.2
   13248.1  17447.7
   13258.8  17472.1
   13269.6  17496.5
   13280.3  17521.0
   13291.0  17545.4
   13301.8  17569.8
   13312.6  17594.2
   13323.3  17618.7
   13334.1  17643.1
   13344.9  17667.5
   13355.7  17691.9
   13366.5  17716.3
   13377.3  17740.7
   13388.2  17765.1
   13399.0  17789.5
   13409.8  17813.9
   13420.7  17838.3
   13431.5  17862.7
   13442.4  17887.1
   13453.3  17911.5
   13464.2  17935.9
   13475.1  17960.2
   13486.0  17984.6
   13496.9  18009.0
   13507.8  18033.3
   13518.8  18057.7
   13529.7  18082.0
   13540.6  18106.4
   13551.6  18130.7
   13562.6  18155.1
   13573.5  18179.4
   13584.5  18203.7
   13595.5  18228.0
   13606.5  18252.4
   13617.5  18276.7
   13628.6  18301.0
   13639.6  18325.3
   13650.6  18349.6
   13661.7  18373.8
   13672.7  18398.1
   13683.8  18422.4
   13694.9  18446.6
   13705.9  18470.9
   13717.0  18495.1
   13728.1  18519.4
   13739.2  18543.6
   13750.4  18567.8
   13761.5  18592.0
   13772.6  18616.3
   13783.8  18640.5
   13794.9  18664.7
   13806.1  18688.8
   13817.3  18713.0
   13828.4  18737.2
   13839.6  18761.3
   13850.8  18785.5
   13862.0  18809.7
   13873.3  18833.8
   13884.5  18857.9
   13895.7  18882.1
   13907.0  18906.2
   13918.2  18930.3
   13929.5  18954.4
   13940.8  18978.5
   13952.0  19002.5
   13963.3  19026.6
   13974.6  19050.7
   13985.9  19074.7
   13997.3  19098.8
   14008.6  19122.8
   14019.9  19146.8
   14031.3  19170.8
   14042.6  19194.9
   14054.0  19218.8
   14065.4  19242.8
   14076.7  19266.8
   14088.1  19290.8
   14099.5  19314.7
   14111.0  19338.6
   14122.4  19362.6
   14133.8  19386.5
   14145.2  19410.4
   14156.7  19434.3
   14168.1  19458.2
   14179.6  19482.0
   14191.1  19505.9
   14202.6  19529.7
   14214.1  19553.6
   14225.6  19577.4
   14237.1  19601.2
   14248.6  19625.0
   14260.1  19648.8
   14271.7  19672.5
   14283.2  19696.3
   14294.8  19720.0
   14306.3  19743.8
   14317.9  19767.5
   14329.5  19791.2
   14341.1  19814.9
   14352.7  19838.6
   14364.3  19862.3
   14376.0  19885.9
   14387.6  19909.5
   14399.2  19933.2
   14410.9  19956.8
   14422.5  19980.4
   14434.2  20004.0
   14445.9  20027.6
   14457.6  20051.1
   14469.3  20074.7
   14481.0  20098.2
   14492.7  20121.7
   14504.4  20145.2
   14516.2  20168.7
   14527.9  20192.2
   14539.7  20215.7
   14551.5  20239.1
   14563.2  20262.5
   14575.0  20285.9
   14586.8  20309.3
   14598.6  20332.7
   14610.4  20356.1
   14622.3  20379.4
   14634.1  20402.8
   14645.9  20426.1
   14657.8  20449.4
   14669.6  20472.7
   14681.5  20495.9
   14693.4  20519.2
   14705.3  20542.4
   14717.2  20565.6
   14729.1  20588.8
   14741.0  20612.0
   14752.9  20635.2
   14764.9  20658.3
   14776.8  20681.5
   14788.8  20704.6
   14800.8  20727.7
   14812.7  20750.8
   14824.7  20773.8
   14836.7  20796.9
   14848.7  20819.9
   14860.7  20842.9
   14872.8  20865.9
   14884.8  20888.9
   14896.9  20911.8
   14908.9  20934.7
   14921.0  20957.7
   14933.0  20980.5
   14945.1  21003.4
   14957.2  21026.3
   14969.3  21049.1
   14981.4  21072.0
   14993.6  21094.7
   15005.7  21118.1
   15017.8  21142.0
   15030.0  21165.8
   15038.6  21182.8
   15047.3  21199.7
   15055.9  21216.6
   15064.6  21233.5
   15073.2  21250.4
   15081.9  21267.4
   15090.6  21284.3
   15099.2  21301.1
   15107.9  21318.0
   15116.6  21334.9
   15125.3  21351.8
   15134.0  21368.6
   15142.6  21385.5
   15151.3  21402.3
   15160.0  21419.2
   15168.8  21436.0
   15177.5  21452.8
   15186.2  21469.6
   15194.9  21486.4
   15203.6  21503.2
   15212.4  21520.0
   15221.1  21536.8
   15229.9  21553.6
   15238.6  21570.3
   15247.4  21587.1
   15256.1  21603.9
   15264.9  21620.6
   15273.7  21637.3
   15282.4  21654.1
   15291.2  21670.8
   15300.0  21687.5
   15308.8  21704.2
   15317.6  21720.9
   15326.4  21737.6
   15335.2  21754.2
   15344.0  21770.9
   15352.8  21787.6
   15361.6  21804.2
   15370.5  21820.8
   15379.3  21837.5
   15388.1  21854.1
   15397.0  21870.7
   15405.8  21887.3
   15414.7  21903.9
   15423.5  21920.5
   15432.4  21937.1
   15441.3  21953.6
   15450.1  21970.2
   15459.0  21986.8
   15467.9  22003.3
   15476.8  22019.9
   15485.7  22036.4
   15494.6  22052.9
   15503.5  22069.4
   15512.4  22085.9
   15521.3  22102.4
   15530.2  22118.9
   15539.1  22135.3
   15548.1  22151.8
   15557.0  22168.3
   15565.9  22184.7
   15574.9  22201.2
   15583.8  22217.6
   15592.8  22234.0
   15601.7  22250.4
   15610.7  22266.8
   15619.7  22283.2
   15628.6  22299.6
   15637.6  22316.0
   15646.6  22332.4
   15655.6  22348.7
   15664.6  22365.1
   15673.6  22381.4
   15682.6  22397.7
   15691.6  22414.1
   15700.6  22430.4
   15709.6  22446.6
   15718.7  22463.0
   15727.7  22479.2
   15736.7  22495.5
   15745.8  22511.8
   15754.8  22528.0
   15763.9  22544.3
   15772.9  22560.5
   15782.0  22576.7
   15791.1  22592.9
   15800.1  22609.1
   15809.2  22625.3
   15818.3  22641.5
   15827.4  22657.7
   15836.5  22673.8
   15845.6  22690.0
   15854.7  22706.1
   15863.8  22722.2
   15872.9  22738.4
   15882.0  22754.5
   15891.1  22770.6
   15900.3  22786.7
   15909.4  22802.7
   15918.5  22818.8
   15927.7  22834.9
   15936.8  22850.9
   15946.0  22867.0
   15955.2  22883.0
   15964.3  22899.0
   15973.5  22915.0
   15982.7  22931.0
   15991.9  22947.0
   16001.0  22963.0
   16010.2  22978.9
   16019.4  22994.9
   16028.6  23010.8
   16037.8  23026.8
   16047.1  23042.7
   16056.3  23058.6
   16065.5  23074.5
   16074.7  23090.4
   16084.0  23106.3
   16093.2  23122.1
   16102.5  23138.0
   16111.7  23153.8
   16121.0  23169.7
   16130.2  23185.5
   16139.5  23201.3
   16148.8  23217.1
   16158.0  23232.9
   16167.3  23248.7
   16176.6  23264.5
   16185.9  23280.2
   16195.2  23296.0
   16204.5  23311.7
   16213.8  23327.4
   16223.1  23343.1
   16232.5  23358.8
   16241.8  23374.5
   16251.1  23390.2
   16260.5  23405.9
   16269.8  23421.5
   16279.1  23437.2
   16288.5  23452.8
   16297.9  23468.4
   16307.2  23484.1
   16316.6  23499.8
   16326.0  23515.5
   16335.3  23531.2
   16344.7  23546.9
   16354.1  23562.5
   16363.5  23578.2
   16372.9  23593.8
   16382.3  23609.4
   16391.7  23625.1
   16401.2  23640.7
   16410.6  23656.3
   16420.0  23671.8
   16429.4  23687.4
   16438.9  23703.0
   16448.3  23718.5
   16457.8  23734.0
   16467.2  23749.6
   16476.7  23765.1
   16486.2  23780.6
   16495.6  23796.1
   16505.1  23811.5
   16514.6  23827.0
   16524.1  23842.4
   16533.6  23857.9
   16543.1  23873.3
   16552.6  23888.7
   16562.1  23904.1
   16571.6  23919.5
   16581.1  23934.9
   16590.6  23950.3
   16600.2  23965.6
   16609.7  23980.9
   16619.3  23996.3
   16628.8  24011.6
   16638.4  24026.9
   16647.9  24042.2
   16657.5  24057.5
   16667.1  24072.8
   16676.6  24088.0
   16686.2  24103.2
   16695.8  24118.5
   16705.4  24133.7
   16715.0  24148.9
   16724.6  24164.1
   16734.2  24179.3
   16743.8  24194.5
   16753.4  24209.6
   16763.1  24224.7
   16772.7  24239.9
   16782.3  24255.0
   16792.0  24270.1
   16801.6  24285.2
   16811.3  24300.3
   16820.9  24315.3
   16830.6  24330.4
   16840.3  24345.4
   16849.9  24360.4
   16859.6  24375.4
   16869.3  24390.4
   16879.0  24405.4
   16888.7  24420.4
   16898.4  24435.3
   16908.1  24450.3
   16917.8  24465.2
   16927.5  24480.1
   16937.3  24495.0
   16947.0  24509.9
   16956.7  24524.8
   16966.5  24539.6
   16976.2  24554.5
   16986.0  24569.3
   16995.7  24584.1
   17005.5  24598.9
   17015.3  24613.7
   17025.0  24628.5
   17034.8  24643.3
   17044.6  24658.0
   17054.4  24672.8
   17064.2  24687.5
   17074.0  24702.2
   17083.8  24716.9
   17093.6  24731.6
   17103.5  24746.2
   17113.3  24760.9
   17123.1  24775.5
   17133.0  24790.2
   17142.8  24804.8
   17152.6  24819.4
   17162.5  24834.0
   17172.4  24848.6
   17182.2  24863.1
   17192.1  24877.7
   17202.0  24892.2
   17211.9  24906.8
   17221.7  24921.3
   17231.6  24935.8
   17241.5  24950.3
   17251.4  24964.7
   17261.4  24979.2
   17271.3  24993.6
   17281.2  25008.0
   17291.1  25022.5
   17301.1  25036.9
   17311.0  25051.2
   17320.9  25065.6
   17330.9  25080.0
   17340.9  25094.3
   17350.8  25108.6
   17360.8  25123.0
   17370.8  25137.3
   17380.7  25151.5
   17390.7  25165.8
   17400.7  25180.1
   17410.7  25194.3
   17420.7  25208.5
   17430.7  25222.8
   17440.7  25237.0
   17450.8  25251.1
   17460.8  25265.3
   17470.8  25279.5
   17480.9  25293.6
   17490.9  25307.8
   17500.9  25321.9
   17511.0  25336.0
   17521.1  25350.1
   17531.1  25364.1
   17541.2  25378.2
   17551.3  25392.2
   17561.4  25406.3
   17571.5  25420.3
   17581.6  25434.3
   17591.7  25448.3
   17601.8  25462.2
   17611.9  25476.2
   17622.0  25490.1
   17632.1  25504.1
   17642.2  25518.0
   17652.4  25531.9
   17662.5  25545.8
   17672.7  25559.6
   17682.8  25573.5
   17693.0  25587.3
   17703.1  25601.2
   17713.3  25615.0
   17723.5  25628.7
   17733.7  25642.5
   17743.9  25656.3
   17754.1  25670.0
   17764.3  25683.8
   17774.5  25697.5
   17784.7  25711.2
   17794.9  25724.9
   17805.1  25738.6
   17815.4  25752.2
   17825.6  25765.9
   17835.8  25779.5
   17846.1  25793.1
   17856.3  25806.7
   17866.6  25820.3
   17876.9  25833.9
   17887.1  25847.4
   17897.4  25861.0
   17907.7  25874.5
   17918.0  25888.0
   17928.3  25901.5
   17938.6  25915.0
   17948.9  25928.5
   17959.2  25941.9
   17969.5  25955.4
   17979.8  25968.8
   17990.2  25982.2
   18000.5  25995.6
   18010.8  26009.0
   18021.2  26022.3
   18031.5  26035.7
   18041.9  26049.0
   18052.3  26062.3
   18062.6  26075.6
   18073.0  26088.9
   18083.4  26102.2
   18093.8  26115.5
   18104.2  26128.7
   18114.6  26141.9
   18125.0  26155.1
   18135.4  26168.3
   18145.8  26181.5
   18156.2  26194.7
   18166.7  26207.8
   18177.1  26221.0
   18187.6  26234.1
   18198.0  26247.2
   18208.5  26260.3
   18218.9  26273.3
   18229.4  26286.4
   18239.9  26299.5
   18250.3  26312.5
   18260.8  26325.5
   18271.3  26338.5
   18281.8  26351.5
   18292.3  26364.4
   18302.8  26377.4
   18313.3  26390.3
   18323.9  26403.2
   18334.4  26416.1
   18344.9  26429.0
   18355.5  26441.9
   18366.0  26454.7
   18376.6  26467.6
   18387.1  26480.4
   18397.7  26493.2
   18408.3  26506.0
   18418.8  26518.8
   18429.4  26531.5
   18440.0  26544.3
   18450.6  26557.0
   18461.2  26569.7
   18471.8  26582.4
   18482.4  26595.1
   18493.0  26607.8
   18503.7  26620.4
   18514.3  26633.1
   18524.9  26645.7
   18535.6  26658.3
   18546.2  26670.9
   18556.9  26683.5
   18567.5  26696.0
   18578.2  26708.6
   18588.9  26721.1
   18599.6  26733.6
   18610.2  26746.1
   18620.9  26758.6
   18631.6  26771.0
   18642.3  26783.5
   18653.1  26795.9
   18663.8  26808.3
   18674.5  26820.8
   18685.2  26833.1
   18696.0  26845.5
   18706.7  26857.8
   18717.4  26870.2
   18728.2  26882.5
   18739.0  26894.8
   18749.7  26907.1
   18760.5  26919.4
   18771.3  26931.6
   18782.1  26943.9
   18792.9  26956.1
   18803.6  26968.3
   18814.5  26980.5
   18825.3  26992.7
   18836.1  27004.9
   18846.9  27017.0
   18857.7  27029.1
   18868.6  27041.3
   18879.4  27053.4
   18890.2  27065.5
   18901.1  27077.5
   18912.0  27089.6
   18922.8  27101.6
   18933.7  27113.7
   18944.6  27125.7
   18955.5  27137.7
   18966.4  27149.6
   18977.2  27161.6
   18988.2  27173.5
   18999.1  27185.5
   19010.0  27197.4
   19020.9  27209.3
   19031.8  27221.1
   19042.8  27233.0
   19053.7  27244.9
   19064.6  27256.7
   19075.6  27268.5
   19086.6  27280.3
   19097.5  27292.1
   19108.5  27303.9
   19119.5  27315.6
   19130.5  27327.4
   19141.5  27339.1
   19152.4  27350.8
   19163.5  27362.5
   19174.5  27374.1
   19185.5  27385.8
   19196.5  27397.4
   19207.5  27409.1
   19218.6  27420.7
   19229.6  27432.2
   19240.7  27443.8
   19251.7  27455.4
   19262.8  27466.9
   19273.8  27478.4
   19284.9  27490.0
   19296.0  27501.4
   19307.1  27512.9
   19318.2  27524.4
   19329.3  27535.8
   19340.4  27547.3
   19351.5  27558.7
   19362.6  27570.1
   19373.7  27581.4
   19384.9  27592.8
   19396.0  27604.2
   19407.1  27615.5
   19418.3  27626.8
   19429.4  27638.1
   19440.6  27649.4
   19451.8  27660.7
   19463.0  27671.9
   19474.1  27683.1
   19485.3  27694.4
   19496.5  27705.6
   19507.7  27716.8
   19518.9  27727.9
   19530.1  27739.1
   19541.4  27750.2
   19552.6  27761.3
   19563.8  27772.4
   19575.1  27783.5
   19586.3  27794.6
   19597.6  27805.7
   19608.8  27816.7
   19620.1  27827.7
   19631.4  27838.8
   19642.6  27849.7
   19653.9  27860.7
   19665.2  27871.7
   19676.5  27882.6
   19687.8  27893.6
   19699.1  27904.5
   19710.4  27915.4
   19721.8  27926.3
   19733.1  27937.1
   19744.4  27948.0
   19755.8  27958.8
   19767.1  27969.6
   19778.5  27980.4
   19789.9  27991.2
   19801.2  28002.0
   19812.6  28012.7
   19824.0  28023.4
   19835.4  28034.2
   19846.8  28044.9
   19858.2  28055.6
   19869.6  28066.2
   19881.0  28076.9
   19892.4  28087.5
   19903.8  28098.1
   19915.3  28108.7
   19926.7  28119.3
   19938.2  28129.9
   19949.6  28140.5
   19961.1  28151.0
   19972.6  28161.5
   19984.0  28172.0
   19995.5  28182.5
   20007.0  28193.8
   20018.5  28205.6
   20030.0  28217.4
   20038.9  28226.5
   20047.9  28235.6
   20056.8  28244.8
   20065.7  28253.8
   20074.7  28263.0
   20083.6  28272.0
   20092.6  28281.1
   20101.5  28290.2
   20110.5  28299.2
   20119.5  28308.3
   20128.4  28317.4
   20137.4  28326.4
   20146.4  28335.4
   20155.4  28344.4
   20164.4  28353.5
   20173.3  28362.5
   20182.3  28371.5
   20191.3  28380.4
   20200.3  28389.4
   20209.3  28398.4
   20218.3  28407.4
   20227.4  28416.3
   20236.4  28425.3
   20245.4  28434.2
   20254.4  28443.1
   20263.5  28452.0
   20272.5  28460.9
   20281.5  28469.9
   20290.6  28478.8
   20299.6  28487.6
   20308.7  28496.5
   20317.7  28505.4
   20326.8  28514.2
   20335.8  28523.1
   20344.9  28532.0
   20354.0  28540.8
   20363.0  28549.6
   20372.1  28558.4
   20381.2  28567.2
   20390.3  28576.1
   20399.4  28584.8
   20408.5  28593.6
   20417.6  28602.4
   20426.7  28611.2
   20435.8  28619.9
   20444.9  28628.7
   20454.0  28637.4
   20463.1  28646.2
   20472.2  28654.9
   20481.4  28663.6
   20490.5  28672.3
   20499.6  28681.0
   20508.8  28689.7
   20517.9  28698.4
   20527.1  28707.1
   20536.2  28715.7
   20545.4  28724.4
   20554.5  28733.0
   20563.7  28741.7
   20572.9  28750.3
   20582.0  28758.9
   20591.2  28767.5
   20600.4  28776.1
   20609.6  28784.8
   20618.8  28793.3
   20627.9  28801.9
   20637.1  28810.5
   20646.3  28819.1
   20655.5  28827.6
   20664.8  28836.2
   20674.0  28844.7
   20683.2  28853.2
   20692.4  28861.8
   20701.6  28870.3
   20710.8  28878.8
   20720.1  28887.3
   20729.3  28895.8
   20738.6  28904.3
   20747.8  28912.7
   20757.1  28921.2
   20766.3  28929.7
   20775.6  28938.1
   20784.8  28946.6
   20794.1  28955.0
   20803.4  28963.4
   20812.6  28971.8
   20821.9  28980.2
   20831.2  28988.7
   20840.5  28997.1
   20849.8  29005.4
   20859.1  29013.8
   20868.4  29022.2
   20877.7  29030.5
   20887.0  29038.9
   20896.3  29047.2
   20905.6  29055.6
   20914.9  29063.9
   20924.2  29072.2
   20933.6  29080.5
   20942.9  29088.8
   20952.2  29097.1
   20961.6  29105.4
   20970.9  29113.7
   20980.3  29121.9
   20989.6  29130.2
   20999.0  29138.5
   21008.3  29146.7
   21017.7  29154.9
   21027.1  29163.2
   21036.5  29171.4
   21045.8  29179.6
   21055.2  29187.8
   21064.6  29196.0
   21074.0  29204.2
   21083.4  29212.3
   21092.8  29220.5
   21102.2  29228.7
   21111.6  29236.8
   21121.0  29244.9
   21130.4  29253.1
   21139.8  29261.2
   21149.3  29269.3
   21158.7  29277.4
   21168.1  29285.5
   21177.6  29293.6
   21187.0  29301.7
   21196.4  29309.8
   21205.9  29317.8
   21215.3  29325.9
   21224.8  29333.9
   21234.3  29342.0
   21243.7  29350.0
   21253.2  29358.0
   21262.7  29366.0
   21272.2  29374.0
   21281.6  29382.0
   21291.1  29390.0
   21300.6  29398.0
   21310.1  29406.0
   21319.6  29413.9
   21329.1  29421.9
   21338.6  29429.8
   21348.1  29437.8
   21357.7  29445.7
   21367.2  29453.6
   21376.7  29461.6
   21386.2  29469.5
   21395.8  29477.4
   21405.3  29485.2
   21414.8  29493.1
   21424.4  29501.0
   21433.9  29508.9
   21443.5  29516.7
   21453.1  29524.6
   21462.6  29532.4
   21472.2  29540.3
   21481.8  29548.1
   21491.3  29555.9
   21500.9  29563.7
   21510.5  29571.5
   21520.1  29579.3
   21529.7  29587.1
   21539.3  29594.8
   21548.9  29602.6
   21558.5  29610.4
   21568.1  29618.1
   21577.7  29625.9
   21587.3  29633.6
   21597.0  29641.3
   21606.6  29649.0
   21616.2  29656.7
   21625.9  29664.4
   21635.5  29672.1
   21645.1  29679.8
   21654.8  29687.5
   21664.4  29695.2
   21674.1  29702.8
   21683.8  29710.5
   21693.4  29718.1
   21703.1  29725.8
   21712.8  29733.4
   21722.5  29741.0
   21732.1  29748.6
   21741.8  29756.2
   21751.5  29763.8
   21761.2  29771.4
   21770.9  29779.0
   21780.6  29786.5
   21790.3  29794.1
   21800.0  29801.6
   21809.8  29809.2
   21819.5  29816.7
   21829.2  29824.3
   21838.9  29831.8
   21848.7  29839.3
   21858.4  29846.8
   21868.2  29854.3
   21877.9  29861.8
   21887.7  29869.3
   21897.4  29876.7
   21907.2  29884.2
   21916.9  29891.6
   21926.7  29899.1
   21936.5  29906.5
   21946.3  29914.0
   21956.1  29921.4
   21965.8  29928.8
   21975.6  29936.2
   21985.4  29943.6
   21995.2  29951.0
   22005.0  29958.4
   22014.8  29965.7
   22024.7  29973.1
   22034.5  29980.5
   22044.3  29987.8
   22054.1  29995.2
   22064.0  30002.5
   22073.8  30009.8
   22083.6  30017.1
   22093.5  30024.4
   22103.3  30031.7
   22113.2  30039.0
   22123.0  30046.3
   22132.9  30053.6
   22142.8  30060.9
   22152.6  30068.1
   22162.5  30075.4
   22172.4  30082.6
   22182.3  30089.8
   22192.2  30097.1
   22202.1  30104.3
   22212.0  30111.5
   22221.9  30118.7
   22231.8  30125.9
   22241.7  30133.1
   22251.6  30140.3
   22261.5  30147.4
   22271.4  30154.6
   22281.4  30161.7
   22291.3  30168.9
   22301.2  30176.0
   22311.2  30183.2
   22321.1  30190.3
   22331.1  30197.4
   22341.0  30204.5
   22351.0  30211.6
   22360.9  30218.7
   22370.9  30225.8
   22380.9  30232.8
   22390.9  30239.9
   22400.8  30247.0
   22410.8  30254.0
   22420.8  30261.0
   22430.8  30268.1
   22440.8  30275.1
   22450.8  30282.1
   22460.8  30289.1
   22470.8  30296.1
   22480.9  30303.1
   22490.9  30310.1
   22500.9  30317.1
   22510.9  30324.1
   22521.0  30331.0
   22531.0  30338.0
   22541.1  30344.9
   22551.1  30351.8
   22561.2  30358.8
   22571.2  30365.7
   22581.3  30372.6
   22591.3  30379.5
   22601.4  30386.4
   22611.5  30393.3
   22621.6  30400.2
   22631.7  30407.0
   22641.7  30413.9
   22651.8  30420.8
   22661.9  30427.6
   22672.0  30434.4
   22682.1  30441.3
   22692.3  30448.1
   22702.4  30454.9
   22712.5  30461.7
   22722.6  30468.5
   22732.7  30475.3
   22742.9  30482.1
   22753.0  30488.9
   22763.2  30495.7
   22773.3  30502.4
   22783.5  30509.2
   22793.6  30515.9
   22803.8  30522.6
   22813.9  30529.4
   22824.1  30536.1
   22834.3  30542.8
   22844.5  30549.5
   22854.7  30556.2
   22864.8  30562.9
   22875.0  30569.6
   22885.2  30576.3
   22895.4  30582.9
   22905.6  30589.6
   22915.9  30596.2
   22926.1  30602.9
   22936.3  30609.5
   22946.5  30616.2
   22956.7  30622.8
   22967.0  30629.4
   22977.2  30636.0
   22987.5  30642.6
   22997.7  30649.2
   23008.0  30655.8
   23018.2  30662.3
   23028.5  30668.9
   23038.7  30675.5
   23049.0  30682.0
   23059.3  30688.5
   23069.6  30695.1
   23079.8  30701.6
   23090.1  30708.1
   23100.4  30714.6
   23110.7  30721.1
   23121.0  30727.6
   23131.3  30734.1
   23141.7  30740.6
   23152.0  30747.1
   23162.3  30753.5
   23172.6  30760.0
   23182.9  30766.4
   23193.3  30772.9
   23203.6  30779.3
   23214.0  30785.7
   23224.3  30792.2
   23234.7  30798.6
   23245.0  30805.0
   23255.4  30811.4
   23265.8  30817.8
   23276.1  30824.1
   23286.5  30830.5
   23296.9  30836.9
   23307.3  30843.2
   23317.7  30849.6
   23328.0  30855.9
   23338.4  30862.2
   23348.9  30868.6
   23359.3  30874.9
   23369.7  30881.2
   23380.1  30887.5
   23390.5  30893.8
   23400.9  30900.1
   23411.4  30906.3
   23421.8  30912.6
   23432.2  30918.9
   23442.7  30925.1
   23453.1  30931.4
   23463.6  30937.6
   23474.1  30943.9
   23484.5  30950.1
   23495.0  30956.3
   23505.5  30962.5
   23515.9  30968.7
   23526.4  30974.9
   23536.9  30981.1
   23547.4  30987.3
   23557.9  30993.4
   23568.4  30999.6
   23578.9  31005.8
   23589.4  31011.9
   23599.9  31018.1
   23610.5  31024.2
   23621.0  31030.3
   23631.5  31036.4
   23642.1  31042.5
   23652.6  31048.6
   23663.1  31054.7
   23673.7  31060.8
   23684.2  31066.9
   23694.8  31073.0
   23705.4  31079.1
   23715.9  31085.1
   23726.5  31091.2
   23737.1  31097.2
   23747.7  31103.2
   23758.2  31109.3
   23768.8  31115.3
   23779.4  31121.3
   23790.0  31127.3
   23800.6  31133.3
   23811.2  31139.3
   23821.9  31145.3
   23832.5  31151.3
   23843.1  31157.2
   23853.7  31163.2
   23864.4  31169.1
   23875.0  31175.1
   23885.7  31181.0
   23896.3  31187.0
   23907.0  31192.9
   23917.6  31198.8
   23928.3  31204.7
   23938.9  31210.6
   23949.6  31216.5
   23960.3  31222.4
   23971.0  31228.3
   23981.7  31234.1
   23992.3  31240.0
   24003.0  31245.9
   24013.7  31251.7
   24024.4  31257.6
   24035.2  31263.4
   24045.9  31269.2
   24056.6  31275.0
   24067.3  31280.8
   24078.0  31286.6
   24088.8  31292.4
   24099.5  31298.2
   24110.3  31304.0
   24121.0  31309.8
   24131.8  31315.6
   24142.5  31321.3
   24153.3  31327.1
   24164.0  31332.8
   24174.8  31338.6
   24185.6  31344.3
   24196.4  31350.0
   24207.2  31355.7
   24218.0  31361.4
   24228.7  31367.1
   24239.5  31372.8
   24250.4  31378.5
   24261.2  31384.2
   24272.0  31389.9
   24282.8  31395.5
   24293.6  31401.2
   24304.5  31406.8
   24315.3  31412.5
   24326.1  31418.1
   24337.0  31423.8
   24347.8  31429.4
   24358.7  31435.0
   24369.5  31440.6
   24380.4  31446.2
   24391.3  31451.8
   24402.1  31457.4
   24413.0  31462.9
   24423.9  31468.5
   24434.8  31474.1
   24445.7  31479.6
   24456.6  31485.2
   24467.5  31490.7
   24478.4  31496.3
   24489.3  31501.8
   24500.2  31507.3
   24511.1  31512.8
   24522.1  31518.3
   24533.0  31523.8
   24543.9  31529.3
   24554.9  31534.8
   24565.8  31540.3
   24576.8  31545.7
   24587.7  31551.2
   24598.7  31556.7
   24609.7  31562.1
   24620.6  31567.6
   24631.6  31573.0
   24642.6  31578.4
   24653.6  31583.8
   24664.6  31589.2
   24675.6  31594.7
   24686.6  31600.1
   24697.6  31605.4
   24708.6  31610.8
   24719.6  31616.2
   24730.6  31621.6
   24741.6  31626.9
   24752.7  31632.3
   24763.7  31637.6
   24774.7  31643.0
   24785.8  31648.3
   24796.8  31653.7
   24807.9  31659.0
   24818.9  31664.3
   24830.0  31669.6
   24841.1  31674.9
   24852.1  31680.2
   24863.2  31685.5
   24874.3  31690.7
   24885.4  31696.0
   24896.5  31701.3
   24907.6  31706.5
   24918.7  31711.8
   24929.8  31717.0
   24940.9  31722.3
   24952.0  31727.5
   24963.2  31732.7
   24974.3  31737.9
   24985.4  31743.2
   24996.6  31748.4
   25007.7  31753.5
   25018.8  31758.7
   25030.0  31763.9
   25039.1  31768.1
   25048.1  31772.3
   25057.2  31776.5
   25066.3  31780.7
   25075.4  31784.9
   25084.5  31789.1
   25093.5  31793.3
   25102.6  31797.4
   25111.7  31801.6
   25120.8  31805.8
   25129.9  31809.9
   25139.0  31814.1
   25148.1  31818.2
   25157.3  31822.4
   25166.4  31826.5
   25175.5  31830.7
   25184.6  31834.8
   25193.7  31838.9
   25202.9  31843.0
   25212.0  31847.2
   25221.1  31851.3
   25230.3  31855.4
   25239.4  31859.5
   25248.6  31863.6
   25257.7  31867.7
   25266.9  31871.8
   25276.0  31875.9
   25285.2  31879.9
   25294.3  31884.0
   25303.5  31888.1
   25312.7  31892.2
   25321.8  31896.2
   25331.0  31900.3
   25340.2  31904.3
   25349.4  31908.4
   25358.5  31912.4
   25367.7  31916.5
   25376.9  31920.5
   25386.1  31924.6
   25395.3  31928.6
   25404.5  31932.6
   25413.7  31936.6
   25422.9  31940.7
   25432.1  31944.7
   25441.4  31948.7
   25450.6  31952.7
   25459.8  31956.7
   25469.0  31960.7
   25478.2  31964.6
   25487.5  31968.6
   25496.7  31972.6
   25506.0  31976.6
   25515.2  31980.6
   25524.4  31984.5
   25533.7  31988.5
   25542.9  31992.4
   25552.2  31996.4
   25561.4  32000.4
   25570.7  32004.3
   25580.0  32008.2
   25589.2  32012.2
   25598.5  32016.1
   25607.8  32020.0
   25617.1  32024.0
   25626.3  32027.9
   25635.6  32031.8
   25644.9  32035.7
   25654.2  32039.6
   25663.5  32043.5
   25672.8  32047.4
   25682.1  32051.3
   25691.4  32055.2
   25700.7  32059.1
   25710.0  32062.9
   25719.3  32066.8
   25728.7  32070.7
   25738.0  32074.6
   25747.3  32078.4
   25756.6  32082.3
   25766.0  32086.1
   25775.3  32090.0
   25784.6  32093.8
   25794.0  32097.7
   25803.3  32101.5
   25812.7  32105.3
   25822.0  32109.1
   25831.4  32113.0
   25840.7  32116.8
   25850.1  32120.6
   25859.5  32124.4
   25868.8  32128.2
   25878.2  32132.0
   25887.6  32135.8
   25897.0  32139.6
   25906.4  32143.4
   25915.7  32147.2
   25925.1  32150.9
   25934.5  32154.7
   25943.9  32158.5
   25953.3  32162.3
   25962.7  32166.0
   25972.1  32169.8
   25981.5  32173.5
   25991.0  32177.3
   26000.4  32181.0
   26009.8  32184.8
   26019.2  32188.5
   26028.6  32192.2
   26038.1  32196.0
   26047.5  32199.7
   26056.9  32203.4
   26066.4  32207.1
   26075.8  32210.8
   26085.3  32214.5
   26094.7  32218.2
   26104.2  32221.9
   26113.6  32225.6
   26123.1  32229.3
   26132.6  32233.0
   26142.0  32236.7
   26151.5  32240.4
   26161.0  32244.0
   26170.5  32247.7
   26179.9  32251.4
   26189.4  32255.0
   26198.9  32258.7
   26208.4  32262.3
   26217.9  32266.0
   26227.4  32269.6
   26236.9  32273.3
   26246.4  32276.9
   26255.9  32280.5
   26265.4  32284.2
   26274.9  32287.8
   26284.5  32291.4
   26294.0  32295.0
   26303.5  32298.6
   26313.0  32302.2
   26322.6  32305.8
   26332.1  32309.4
   26341.7  32313.0
   26351.2  32316.6
   26360.7  32320.2
   26370.3  32323.8
   26379.9  32327.3
   26389.4  32330.9
   26399.0  32334.5
   26408.5  32338.0
   26418.1  32341.6
   26427.7  32345.1
   26437.2  32348.7
   26446.8  32352.2
   26456.4  32355.8
   26466.0  32359.3
   26475.6  32362.8
   26485.2  32366.4
   26494.8  32369.9
   26504.4  32373.4
   26514.0  32376.9
   26523.6  32380.4
   26533.2  32384.0
   26542.8  32387.5
   26552.4  32391.0
   26562.0  32394.5
   26571.7  32398.0
   26581.3  32401.4
   26590.9  32404.9
   26600.6  32408.4
   26610.2  32411.9
   26619.8  32415.3
   26629.5  32418.8
   26639.1  32422.3
   26648.8  32425.7
   26658.4  32429.2
   26668.1  32432.6
   26677.8  32436.1
   26687.4  32439.5
   26697.1  32443.0
   26706.8  32446.4
   26716.4  32449.8
   26726.1  32453.3
   26735.8  32456.7
   26745.5  32460.1
   26755.2  32463.5
   26764.9  32466.9
   26774.6  32470.3
   26784.3  32473.7
   26794.0  32477.1
   26803.7  32480.5
   26813.4  32483.9
   26823.1  32487.3
   26832.8  32490.7
   26842.5  32494.1
   26852.3  32497.4
   26862.0  32500.8
   26871.7  32504.2
   26881.5  32507.5
   26891.2  32510.9
   26901.0  32514.2
   26910.7  32517.6
   26920.5  32520.9
   26930.2  32524.3
   26940.0  32527.6
   26949.7  32530.9
   26959.5  32534.3
   26969.3  32537.6
   26979.0  32540.9
   26988.8  32544.2
   26998.6  32547.6
   27008.4  32550.9
   27018.1  32554.2
   27027.9  32557.5
   27037.7  32560.8
   27047.5  32564.1
   27057.3  32567.4
   27067.1  32570.6
   27076.9  32573.9
   27086.7  32577.2
   27096.6  32580.5
   27106.4  32583.7
   27116.2  32587.0
   27126.0  32590.3
   27135.8  32593.5
   27145.7  32596.8
   27155.5  32600.0
   27165.4  32603.3
   27175.2  32606.5
   27185.0  32609.8
   27194.9  32613.0
   27204.7  32616.2
   27214.6  32619.4
   27224.5  32622.7
   27234.3  32625.9
   27244.2  32629.1
   27254.1  32632.3
   27263.9  32635.5
   27273.8  32638.7
   27283.7  32641.9
   27293.6  32645.1
   27303.5  32648.3
   27313.4  32651.5
   27323.3  32654.7
   27333.2  32657.9
   27343.1  32661.0
   27353.0  32664.2
   27362.9  32667.4
   27372.8  32670.6
   27382.7  32673.7
   27392.6  32676.9
   27402.6  32680.0
   27412.5  32683.2
   27422.4  32686.3
   27432.3  32689.5
   27442.3  32692.6
   27452.2  32695.7
   27462.2  32698.9
   27472.1  32702.0
   27482.1  32705.1
   27492.0  32708.2
   27502.0  32711.3
   27512.0  32714.4
   27521.9  32717.6
   27531.9  32720.7
   27541.9  32723.8
   27551.9  32726.9
   27561.8  32729.9
   27571.8  32733.0
   27581.8  32736.1
   27591.8  32739.2
   27601.8  32742.3
   27611.8  32745.4
   27621.8  32748.4
   27631.8  32751.5
   27641.8  32754.5
   27651.8  32757.6
   27661.9  32760.7
   27671.9  32763.7
   27681.9  32766.8
   27691.9  32769.8
   27702.0  32772.8
   27712.0  32775.9
   27722.0  32778.9
   27732.1  32781.9
   27742.1  32784.9
   27752.2  32788.0
   27762.2  32791.0
   27772.3  32794.0
   27782.4  32797.0
   27792.4  32800.0
   27802.5  32803.0
   27812.6  32806.0
   27822.7  32809.0
   27832.7  32812.0
   27842.8  32815.0
   27852.9  32818.0
   27863.0  32820.9
   27873.1  32823.9
   27883.2  32826.9
   27893.3  32829.9
   27903.4  32832.8
   27913.5  32835.8
   27923.6  32838.7
   27933.7  32841.7
   27943.9  32844.6
   27954.0  32847.6
   27964.1  32850.5
   27974.2  32853.5
   27984.4  32856.4
   27994.5  32859.3
   28004.7  32862.2
   28014.8  32865.2
   28025.0  32868.1
   28035.1  32871.0
   28045.3  32873.9
   28055.4  32876.8
   28065.6  32879.7
   28075.8  32882.6
   28085.9  32885.5
   28096.1  32888.4
   28106.3  32891.3
   28116.5  32894.2
   28126.7  32897.1
   28136.8  32900.0
   28147.0  32902.8
   28157.2  32905.7
   28167.4  32908.6
   28177.6  32911.4
   28187.9  32914.3
   28198.1  32917.2
   28208.3  32920.0
   28218.5  32922.9
   28228.7  32925.7
   28239.0  32928.6
   28249.2  32931.4
   28259.4  32934.2
   28269.7  32937.1
   28279.9  32939.9
   28290.2  32942.7
   28300.4  32945.5
   28310.7  32948.4
   28320.9  32951.2
   28331.2  32954.0
   28341.4  32956.8
   28351.7  32959.6
   28362.0  32962.4
   28372.3  32965.2
   28382.5  32968.0
   28392.8  32970.8
   28403.1  32973.5
   28413.4  32976.3
   28423.7  32979.1
   28434.0  32981.9
   28444.3  32984.7
   28454.6  32987.4
   28464.9  32990.2
   28475.2  32992.9
   28485.5  32995.7
   28495.9  32998.5
   28506.2  33001.2
   28516.5  33003.9
   28526.8  33006.7
   28537.2  33009.4
   28547.5  33012.2
   28557.9  33014.9
   28568.2  33017.6
   28578.6  33020.4
   28588.9  33023.1
   28599.3  33025.8
   28609.6  33028.5
   28620.0  33031.2
   28630.4  33033.9
   28640.7  33036.6
   28651.1  33039.3
   28661.5  33042.0
   28671.9  33044.7
   28682.3  33047.4
   28692.7  33050.1
   28703.1  33052.8
   28713.5  33055.5
   28723.9  33058.1
   28734.3  33060.8
   28744.7  33063.5
   28755.1  33066.1
   28765.5  33068.8
   28775.9  33071.5
   28786.4  33074.1
   28796.8  33076.8
   28807.2  33079.4
   28817.7  33082.1
   28828.1  33084.7
   28838.5  33087.3
   28849.0  33090.0
   28859.4  33092.6
   28869.9  33095.2
   28880.4  33097.8
   28890.8  33100.5
   28901.3  33103.1
   28911.8  33105.7
   28922.2  33108.3
   28932.7  33110.9
   28943.2  33113.5
   28953.7  33116.1
   28964.2  33118.7
   28974.7  33121.3
   28985.2  33123.9
   28995.7  33126.5
   29006.2  33129.1
   29016.7  33131.7
   29027.2  33134.2
   29037.7  33136.8
   29048.2  33139.4
   29058.8  33141.9
   29069.3  33144.5
   29079.8  33147.1
   29090.4  33149.6
   29100.9  33152.2
   29111.4  33154.7
   29122.0  33157.3
   29132.5  33159.8
   29143.1  33162.3
   29153.6  33164.9
   29164.2  33167.4
   29174.8  33169.9
   29185.3  33172.5
   29195.9  33175.0
   29206.5  33177.5
   29217.1  33180.0
   29227.7  33182.5
   29238.3  33185.0
   29248.8  33187.5
   29259.4  33190.1
   29270.0  33192.6
   29280.7  33195.0
   29291.3  33197.5
   29301.9  33200.0
   29312.5  33202.5
   29323.1  33205.0
   29333.7  33207.5
   29344.4  33209.9
   29355.0  33212.4
   29365.6  33214.9
   29376.3  33217.4
   29386.9  33219.8
   29397.6  33222.3
   29408.2  33224.7
   29418.9  33227.2
   29429.5  33229.6
   29440.2  33232.1
   29450.9  33234.5
   29461.5  33237.0
   29472.2  33239.4
   29482.9  33241.8
   29493.6  33244.3
   29504.2  33246.7
   29514.9  33249.1
   29525.6  33251.5
   29536.3  33254.0
   29547.0  33256.4
   29557.7  33258.8
   29568.4  33261.2
   29579.2  33263.6
   29589.9  33266.0
   29600.6  33268.4
   29611.3  33270.8
   29622.0  33273.2
   29632.8  33275.6
   29643.5  33277.9
   29654.3  33280.3
   29665.0  33282.7
   29675.7  33285.1
   29686.5  33287.4
   29697.3  33289.8
   29708.0  33292.2
   29718.8  33294.5
   29729.5  33296.9
   29740.3  33299.3
   29751.1  33301.6
   29761.9  33304.0
   29772.7  33306.3
   29783.4  33308.6
   29794.2  33311.0
   29805.0  33313.3
   29815.8  33315.7
   29826.6  33318.0
   29837.4  33320.3
   29848.2  33322.6
   29859.1  33324.9
   29869.9  33327.3
   29880.7  33329.6
   29891.5  33331.9
   29902.4  33334.2
   29913.2  33336.5
   29924.0  33338.8
   29934.9  33341.1
   29945.7  33343.4
   29956.6  33345.7
   29967.4  33348.0
   29978.3  33350.3
   29989.1  33352.5
   30000.0  33354.8
